Folder: PMLE/data/XRD (part 2)

File: sample_7.xy
10.00010 569.000
10.20045 562.000
10.40080 562.000
10.60115 551.000
10.80150 535.000
11.00184 573.000
11.20219 552.000
11.40254 556.000
11.60289 526.000
11.80324 566.000
12.00359 558.000
12.20394 596.000
12.40429 596.000
12.60464 648.000
12.80499 1208.000
13.00533 2150.000
13.20568 1313.000
13.40603 733.000
13.60638 567.000
13.80673 542.000
14.00708 469.000
14.20743 583.000
14.40778 737.000
14.60813 1151.000
14.80848 530.000
15.00882 440.000
15.20917 448.000
15.40952 484.000
15.60987 458.000
15.81022 449.000
16.01057 443.000
16.21092 413.000
16.41127 460.000
16.61162 451.000
16.81196 434.000
17.01231 431.000
17.21266 433.000
17.41301 467.000
17.61336 444.000
17.81371 410.000
18.01406 447.000
18.21441 419.000
18.41476 452.000
18.61511 474.000
18.81545 473.000
19.01580 471.000
19.21615 514.000
19.41650 509.000
19.61685 508.000
19.81720 500.000
20.01755 538.000
20.21790 521.000
20.41825 570.000
20.61859 679.000
20.81894 503.000
21.01929 560.000
21.21964 539.000
21.41999 565.000
21.62034 576.000
21.82069 568.000
22.02104 638.000
22.22139 578.000
22.42174 591.000
22.62208 589.000
22.82243 614.000
23.02278 738.000
23.22313 636.000
23.42348 589.000
23.62383 633.000
23.82418 652.000
24.02453 611.000
24.22488 594.000
24.42523 632.000
24.62557 619.000
24.82592 624.000
25.02627 757.000
25.22662 708.000
25.42697 594.000
25.62732 656.000
25.82767 911.000
26.02802 817.000
26.22837 608.000
26.42871 529.000
26.62906 521.000
26.82941 514.000
27.02976 522.000
27.23011 487.000
27.43046 505.000
27.63081 470.000
27.83116 478.000
28.03151 462.000
28.23186 489.000
28.43220 450.000
28.63255 505.000
28.83290 708.000
29.03325 1841.000
29.23360 527.000
29.43395 409.000
29.63430 425.000
29.83465 379.000
30.03500 389.000
30.23534 439.000
30.43569 356.000
30.63604 375.000
30.83639 362.000
31.03674 357.000
31.23709 349.000
31.43744 347.000
31.63779 339.000
31.83814 316.000
32.03849 319.000
32.23883 325.000
32.43918 480.000
32.63953 522.000
32.83988 326.000
33.04023 309.000
33.24058 319.000
33.44093 323.000
33.64128 305.000
33.84163 250.000
34.04198 282.000
34.24232 252.000
34.44267 283.000
34.64302 263.000
34.84337 256.000
35.04372 274.000
35.24407 248.000
35.44442 279.000
35.64477 340.000
35.84512 281.000
36.04546 246.000
36.24581 212.000
36.44616 254.000
36.64651 231.000
36.84686 234.000
37.04721 229.000
37.24756 253.000
37.44791 218.000
37.64826 248.000
37.84861 207.000
38.04895 233.000
38.24930 221.000
38.44965 230.000
38.65000 238.000
38.85035 377.000
39.05070 557.000
39.25105 441.000
39.45140 272.000
39.65175 223.000
39.85210 219.000
40.05244 214.000
40.25279 234.000
40.45314 208.000
40.65349 196.000
40.85384 198.000
41.05419 218.000
41.25454 303.000
41.45489 402.000
41.65524 261.000
41.85558 204.000
42.05593 200.000
42.25628 223.000
42.45663 227.000
42.65698 233.000
42.85733 274.000
43.05768 196.000
43.25803 211.000
43.45838 221.000
43.65873 231.000
43.85907 248.000
44.05942 250.000
44.25977 228.000
44.46012 209.000
44.66047 215.000
44.86082 217.000
45.06117 237.000
45.26152 225.000
45.46187 255.000
45.66221 215.000
45.86256 209.000
46.06291 226.000
46.26326 203.000
46.46361 200.000
46.66396 209.000
46.86431 198.000
47.06466 194.000
47.26501 203.000
47.46536 194.000
47.66570 209.000
47.86605 195.000
48.06640 220.000
48.26675 189.000
48.46710 172.000
48.66745 220.000
48.86780 236.000
49.06815 174.000
49.26850 196.000
49.46885 171.000
49.66919 167.000
49.86954 198.000
50.06989 201.000
50.27024 189.000
50.47059 167.000
50.67094 189.000
50.87129 171.000
51.07164 215.000
51.27199 208.000
51.47233 161.000
51.67268 173.000
51.87303 183.000
52.07338 171.000
52.27373 205.000
52.47408 229.000
52.67443 402.000
52.87478 499.000
53.07513 382.000
53.27548 227.000
53.47582 188.000
53.67617 208.000
53.87652 165.000
54.07687 179.000
54.27722 183.000
54.47757 166.000
54.67792 197.000
54.87827 159.000
55.07862 151.000
55.27897 201.000
55.47931 160.000
55.67966 171.000
55.88001 143.000
56.08036 165.000
56.28071 151.000
56.48106 153.000
56.68141 170.000
56.88176 173.000
57.08211 166.000
57.28245 165.000
57.48280 165.000
57.68315 152.000
57.88350 154.000
58.08385 160.000
58.28420 171.000
58.48455 143.000
58.68490 163.000
58.88525 178.000
59.08560 169.000
59.28594 151.000
59.48629 160.000
59.68664 177.000
59.88699 173.000
59.98717 165.000

File: sample_8.xy
10.00010 621.000
10.20045 590.000
10.40080 571.000
10.60115 604.000
10.80150 545.000
11.00184 531.000
11.20219 591.000
11.40254 537.000
11.60289 580.000
11.80324 540.000
12.00359 572.000
12.20394 556.000
12.40429 496.000
12.60464 567.000
12.80499 527.000
13.00533 616.000
13.20568 581.000
13.40603 517.000
13.60638 541.000
13.80673 537.000
14.00708 521.000
14.20743 550.000
14.40778 1661.000
14.60813 607.000
14.80848 512.000
15.00882 443.000
15.20917 511.000
15.40952 438.000
15.60987 460.000
15.81022 454.000
16.01057 481.000
16.21092 474.000
16.41127 432.000
16.61162 458.000
16.81196 438.000
17.01231 463.000
17.21266 415.000
17.41301 479.000
17.61336 438.000
17.81371 444.000
18.01406 481.000
18.21441 483.000
18.41476 488.000
18.61511 454.000
18.81545 541.000
19.01580 474.000
19.21615 512.000
19.41650 549.000
19.61685 559.000
19.81720 559.000
20.01755 547.000
20.21790 587.000
20.41825 586.000
20.61859 584.000
20.81894 559.000
21.01929 587.000
21.21964 616.000
21.41999 598.000
21.62034 624.000
21.82069 583.000
22.02104 578.000
22.22139 624.000
22.42174 637.000
22.62208 660.000
22.82243 689.000
23.02278 605.000
23.22313 651.000
23.42348 576.000
23.62383 632.000
23.82418 592.000
24.02453 606.000
24.22488 606.000
24.42523 606.000
24.62557 583.000
24.82592 712.000
25.02627 832.000
25.22662 624.000
25.42697 560.000
25.62732 580.000
25.82767 561.000
26.02802 548.000
26.22837 508.000
26.42871 526.000
26.62906 561.000
26.82941 543.000
27.02976 533.000
27.23011 442.000
27.43046 444.000
27.63081 503.000
27.83116 475.000
28.03151 485.000
28.23186 457.000
28.43220 496.000
28.63255 777.000
28.83290 1216.000
29.03325 714.000
29.23360 473.000
29.43395 410.000
29.63430 369.000
29.83465 411.000
30.03500 415.000
30.23534 388.000
30.43569 397.000
30.63604 354.000
30.83639 358.000
31.03674 362.000
31.23709 397.000
31.43744 356.000
31.63779 332.000
31.83814 324.000
32.03849 382.000
32.23883 446.000
32.43918 395.000
32.63953 331.000
32.83988 334.000
33.04023 276.000
33.24058 270.000
33.44093 295.000
33.64128 284.000
33.84163 254.000
34.04198 284.000
34.24232 261.000
34.44267 296.000
34.64302 289.000
34.84337 270.000
35.04372 253.000
35.24407 279.000
35.44442 301.000
35.64477 255.000
35.84512 282.000
36.04546 242.000
36.24581 245.000
36.44616 260.000
36.64651 221.000
36.84686 251.000
37.04721 236.000
37.24756 207.000
37.44791 268.000
37.64826 211.000
37.84861 209.000
38.04895 250.000
38.24930 210.000
38.44965 215.000
38.65000 217.000
38.85035 215.000
39.05070 209.000
39.25105 208.000
39.45140 204.000
39.65175 206.000
39.85210 205.000
40.05244 227.000
40.25279 215.000
40.45314 209.000
40.65349 227.000
40.85384 262.000
41.05419 225.000
41.25454 276.000
41.45489 232.000
41.65524 220.000
41.85558 231.000
42.05593 203.000
42.25628 219.000
42.45663 197.000
42.65698 226.000
42.85733 204.000
43.05768 225.000
43.25803 247.000
43.45838 219.000
43.65873 244.000
43.85907 271.000
44.05942 227.000
44.25977 213.000
44.46012 195.000
44.66047 189.000
44.86082 220.000
45.06117 253.000
45.26152 238.000
45.46187 189.000
45.66221 199.000
45.86256 214.000
46.06291 205.000
46.26326 202.000
46.46361 183.000
46.66396 197.000
46.86431 166.000
47.06466 172.000
47.26501 171.000
47.46536 178.000
47.66570 196.000
47.86605 176.000
48.06640 182.000
48.26675 189.000
48.46710 188.000
48.66745 197.000
48.86780 194.000
49.06815 180.000
49.26850 165.000
49.46885 184.000
49.66919 204.000
49.86954 202.000
50.06989 186.000
50.27024 194.000
50.47059 172.000
50.67094 182.000
50.87129 201.000
51.07164 185.000
51.27199 198.000
51.47233 177.000
51.67268 168.000
51.87303 166.000
52.07338 185.000
52.27373 188.000
52.47408 187.000
52.67443 190.000
52.87478 163.000
53.07513 171.000
53.27548 155.000
53.47582 160.000
53.67617 174.000
53.87652 175.000
54.07687 154.000
54.27722 163.000
54.47757 160.000
54.67792 168.000
54.87827 180.000
55.07862 158.000
55.27897 176.000
55.47931 168.000
55.67966 153.000
55.88001 192.000
56.08036 156.000
56.28071 172.000
56.48106 176.000
56.68141 161.000
56.88176 160.000
57.08211 144.000
57.28245 142.000
57.48280 132.000
57.68315 160.000
57.88350 154.000
58.08385 169.000
58.28420 169.000
58.48455 154.000
58.68490 160.000
58.88525 204.000
59.08560 151.000
59.28594 182.000
59.48629 172.000
59.68664 173.000
59.88699 166.000
59.98717 136.000