Folder: PMLE/data/XRD

Note: README.md
# Python and Machine Learning Essentials 

A course by Tara Murphy

File: sample_1.xy
10.00010 376.000
10.20045 406.000
10.40080 358.000
10.60115 408.000
10.80150 383.000
11.00184 364.000
11.20219 324.000
11.40254 359.000
11.60289 392.000
11.80324 372.000
12.00359 342.000
12.20394 385.000
12.40429 353.000
12.60464 361.000
12.80499 381.000
13.00533 358.000
13.20568 348.000
13.40603 351.000
13.60638 336.000
13.80673 399.000
14.00708 405.000
14.20743 1666.000
14.40778 764.000
14.60813 370.000
14.80848 359.000
15.00882 340.000
15.20917 346.000
15.40952 297.000
15.60987 293.000
15.81022 318.000
16.01057 326.000
16.21092 295.000
16.41127 295.000
16.61162 269.000
16.81196 285.000
17.01231 298.000
17.21266 284.000
17.41301 254.000
17.61336 298.000
17.81371 300.000
18.01406 273.000
18.21441 291.000
18.41476 295.000
18.61511 320.000
18.81545 327.000
19.01580 321.000
19.21615 322.000
19.41650 321.000
19.61685 344.000
19.81720 312.000
20.01755 377.000
20.21790 378.000
20.41825 405.000
20.61859 376.000
20.81894 407.000
21.01929 375.000
21.21964 404.000
21.41999 382.000
21.62034 378.000
21.82069 416.000
22.02104 466.000
22.22139 373.000
22.42174 442.000
22.62208 410.000
22.82243 443.000
23.02278 456.000
23.22313 431.000
23.42348 404.000
23.62383 434.000
23.82418 451.000
24.02453 425.000
24.22488 431.000
24.42523 426.000
24.62557 747.000
24.82592 384.000
25.02627 421.000
25.22662 377.000
25.42697 383.000
25.62732 378.000
25.82767 368.000
26.02802 350.000
26.22837 374.000
26.42871 361.000
26.62906 334.000
26.82941 355.000
27.02976 330.000
27.23011 334.000
27.43046 327.000
27.63081 322.000
27.83116 319.000
28.03151 343.000
28.23186 445.000
28.43220 1516.000
28.63255 633.000
28.83290 339.000
29.03325 322.000
29.23360 292.000
29.43395 265.000
29.63430 257.000
29.83465 279.000
30.03500 281.000
30.23534 232.000
30.43569 262.000
30.63604 236.000
30.83639 268.000
31.03674 232.000
31.23709 254.000
31.43744 249.000
31.63779 234.000
31.83814 460.000
32.03849 260.000
32.23883 208.000
32.43918 215.000
32.63953 227.000
32.83988 201.000
33.04023 237.000
33.24058 206.000
33.44093 200.000
33.64128 200.000
33.84163 180.000
34.04198 204.000
34.24232 193.000
34.44267 182.000
34.64302 193.000
34.84337 191.000
35.04372 171.000
35.24407 179.000
35.44442 163.000
35.64477 166.000
35.84512 185.000
36.04546 163.000
36.24581 160.000
36.44616 161.000
36.64651 193.000
36.84686 182.000
37.04721 161.000
37.24756 175.000
37.44791 136.000
37.64826 172.000
37.84861 133.000
38.04895 151.000
38.24930 135.000
38.44965 149.000
38.65000 139.000
38.85035 132.000
39.05070 138.000
39.25105 134.000
39.45140 120.000
39.65175 142.000
39.85210 137.000
40.05244 132.000
40.25279 144.000
40.45314 169.000
40.65349 325.000
40.85384 154.000
41.05419 121.000
41.25454 133.000
41.45489 158.000
41.65524 137.000
41.85558 143.000
42.05593 153.000
42.25628 180.000
42.45663 119.000
42.65698 152.000
42.85733 134.000
43.05768 198.000
43.25803 200.000
43.45838 167.000
43.65873 145.000
43.85907 136.000
44.05942 137.000
44.25977 155.000
44.46012 136.000
44.66047 145.000
44.86082 143.000
45.06117 134.000
45.26152 138.000
45.46187 144.000
45.66221 136.000
45.86256 118.000
46.06291 140.000
46.26326 129.000
46.46361 113.000
46.66396 138.000
46.86431 132.000
47.06466 130.000
47.26501 126.000
47.46536 143.000
47.66570 132.000
47.86605 144.000
48.06640 114.000
48.26675 140.000
48.46710 129.000
48.66745 122.000
48.86780 138.000
49.06815 121.000
49.26850 135.000
49.46885 132.000
49.66919 122.000
49.86954 131.000
50.06989 129.000
50.27024 123.000
50.47059 114.000
50.67094 119.000
50.87129 124.000
51.07164 119.000
51.27199 115.000
51.47233 117.000
51.67268 105.000
51.87303 122.000
52.07338 103.000
52.27373 113.000
52.47408 128.000
52.67443 117.000
52.87478 108.000
53.07513 106.000
53.27548 116.000
53.47582 109.000
53.67617 115.000
53.87652 127.000
54.07687 109.000
54.27722 104.000
54.47757 118.000
54.67792 107.000
54.87827 117.000
55.07862 115.000
55.27897 105.000
55.47931 102.000
55.67966 116.000
55.88001 105.000
56.08036 115.000
56.28071 105.000
56.48106 96.000
56.68141 99.000
56.88176 115.000
57.08211 110.000
57.28245 105.000
57.48280 74.000
57.68315 115.000
57.88350 108.000
58.08385 96.000
58.28420 99.000
58.48455 120.000
58.68490 145.000
58.88525 130.000
59.08560 119.000
59.28594 96.000
59.48629 106.000
59.68664 107.000
59.88699 105.000
59.98717 105.000

File: sample_2_repeat.xy
10.00010 577.000
10.20045 560.000
10.40080 596.000
10.60115 545.000
10.80150 554.000
11.00184 501.000
11.20219 537.000
11.40254 525.000
11.60289 577.000
11.80324 555.000
12.00359 566.000
12.20394 579.000
12.40429 609.000
12.60464 626.000
12.80499 1105.000
13.00533 1723.000
13.20568 962.000
13.40603 592.000
13.60638 515.000
13.80673 523.000
14.00708 490.000
14.20743 472.000
14.40778 517.000
14.60813 1149.000
14.80848 555.000
15.00882 441.000
15.20917 456.000
15.40952 458.000
15.60987 426.000
15.81022 472.000
16.01057 448.000
16.21092 418.000
16.41127 467.000
16.61162 425.000
16.81196 434.000
17.01231 443.000
17.21266 418.000
17.41301 432.000
17.61336 414.000
17.81371 451.000
18.01406 447.000
18.21441 423.000
18.41476 444.000
18.61511 474.000
18.81545 462.000
19.01580 452.000
19.21615 443.000
19.41650 465.000
19.61685 461.000
19.81720 493.000
20.01755 541.000
20.21790 502.000
20.41825 576.000
20.61859 900.000
20.81894 817.000
21.01929 605.000
21.21964 606.000
21.41999 603.000
21.62034 612.000
21.82069 609.000
22.02104 571.000
22.22139 615.000
22.42174 591.000
22.62208 640.000
22.82243 663.000
23.02278 707.000
23.22313 714.000
23.42348 632.000
23.62383 601.000
23.82418 642.000
24.02453 622.000
24.22488 590.000
24.42523 606.000
24.62557 590.000
24.82592 607.000
25.02627 578.000
25.22662 923.000
25.42697 629.000
25.62732 604.000
25.82767 754.000
26.02802 682.000
26.22837 567.000
26.42871 494.000
26.62906 528.000
26.82941 514.000
27.02976 479.000
27.23011 623.000
27.43046 522.000
27.63081 465.000
27.83116 469.000
28.03151 451.000
28.23186 467.000
28.43220 447.000
28.63255 434.000
28.83290 457.000
29.03325 595.000
29.23360 1857.000
29.43395 630.000
29.63430 409.000
29.83465 380.000
30.03500 393.000
30.23534 385.000
30.43569 376.000
30.63604 352.000
30.83639 310.000
31.03674 363.000
31.23709 299.000
31.43744 359.000
31.63779 325.000
31.83814 337.000
32.03849 343.000
32.23883 373.000
32.43918 336.000
32.63953 456.000
32.83988 515.000
33.04023 328.000
33.24058 309.000
33.44093 296.000
33.64128 293.000
33.84163 287.000
34.04198 283.000
34.24232 224.000
34.44267 269.000
34.64302 272.000
34.84337 302.000
35.04372 262.000
35.24407 261.000
35.44442 272.000
35.64477 269.000
35.84512 313.000
36.04546 379.000
36.24581 271.000
36.44616 219.000
36.64651 246.000
36.84686 219.000
37.04721 228.000
37.24756 235.000
37.44791 254.000
37.64826 204.000
37.84861 212.000
38.04895 224.000
38.24930 252.000
38.44965 208.000
38.65000 244.000
38.85035 372.000
39.05070 463.000
39.25105 339.000
39.45140 221.000
39.65175 219.000
39.85210 236.000
40.05244 237.000
40.25279 208.000
40.45314 219.000
40.65349 224.000
40.85384 217.000
41.05419 212.000
41.25454 223.000
41.45489 339.000
41.65524 403.000
41.85558 356.000
42.05593 286.000
42.25628 228.000
42.45663 188.000
42.65698 210.000
42.85733 210.000
43.05768 250.000
43.25803 271.000
43.45838 238.000
43.65873 195.000
43.85907 208.000
44.05942 244.000
44.25977 243.000
44.46012 205.000
44.66047 226.000
44.86082 232.000
45.06117 218.000
45.26152 205.000
45.46187 210.000
45.66221 207.000
45.86256 212.000
46.06291 187.000
46.26326 199.000
46.46361 168.000
46.66396 220.000
46.86431 239.000
47.06466 238.000
47.26501 209.000
47.46536 210.000
47.66570 211.000
47.86605 205.000
48.06640 194.000
48.26675 196.000
48.46710 194.000
48.66745 213.000
48.86780 200.000
49.06815 208.000
49.26850 173.000
49.46885 151.000
49.66919 196.000
49.86954 186.000
50.06989 192.000
50.27024 195.000
50.47059 184.000
50.67094 185.000
50.87129 167.000
51.07164 150.000
51.27199 183.000
51.47233 203.000
51.67268 179.000
51.87303 200.000
52.07338 193.000
52.27373 206.000
52.47408 264.000
52.67443 369.000
52.87478 373.000
53.07513 258.000
53.27548 206.000
53.47582 200.000
53.67617 196.000
53.87652 152.000
54.07687 175.000
54.27722 183.000
54.47757 146.000
54.67792 175.000
54.87827 198.000
55.07862 163.000
55.27897 179.000
55.47931 174.000
55.67966 162.000
55.88001 169.000
56.08036 160.000
56.28071 180.000
56.48106 141.000
56.68141 156.000
56.88176 138.000
57.08211 163.000
57.28245 140.000
57.48280 135.000
57.68315 158.000
57.88350 160.000
58.08385 163.000
58.28420 166.000
58.48455 145.000
58.68490 150.000
58.88525 159.000
59.08560 130.000
59.28594 159.000
59.48629 176.000
59.68664 178.000
59.88699 151.000
59.98717 163.000

File: sample_3.xy
10.00010 626.000
10.20045 639.000
10.40080 631.000
10.60115 578.000
10.80150 573.000
11.00184 558.000
11.20219 574.000
11.40254 518.000
11.60289 536.000
11.80324 555.000
12.00359 571.000
12.20394 558.000
12.40429 595.000
12.60464 594.000
12.80499 580.000
13.00533 604.000
13.20568 532.000
13.40603 522.000
13.60638 520.000
13.80673 539.000
14.00708 601.000
14.20743 685.000
14.40778 3775.000
14.60813 658.000
14.80848 528.000
15.00882 498.000
15.20917 432.000
15.40952 478.000
15.60987 497.000
15.81022 426.000
16.01057 452.000
16.21092 455.000
16.41127 460.000
16.61162 418.000
16.81196 445.000
17.01231 484.000
17.21266 494.000
17.41301 486.000
17.61336 457.000
17.81371 443.000
18.01406 483.000
18.21441 483.000
18.41476 532.000
18.61511 477.000
18.81545 528.000
19.01580 465.000
19.21615 469.000
19.41650 507.000
19.61685 547.000
19.81720 531.000
20.01755 573.000
20.21790 616.000
20.41825 617.000
20.61859 578.000
20.81894 562.000
21.01929 587.000
21.21964 580.000
21.41999 585.000
21.62034 586.000
21.82069 566.000
22.02104 633.000
22.22139 620.000
22.42174 609.000
22.62208 662.000
22.82243 676.000
23.02278 596.000
23.22313 671.000
23.42348 630.000
23.62383 615.000
23.82418 617.000
24.02453 650.000
24.22488 659.000
24.42523 632.000
24.62557 668.000
24.82592 998.000
25.02627 743.000
25.22662 578.000
25.42697 586.000
25.62732 594.000
25.82767 541.000
26.02802 550.000
26.22837 521.000
26.42871 543.000
26.62906 555.000
26.82941 544.000
27.02976 508.000
27.23011 516.000
27.43046 486.000
27.63081 495.000
27.83116 485.000
28.03151 498.000
28.23186 469.000
28.43220 628.000
28.63255 2748.000
28.83290 1057.000
29.03325 519.000
29.23360 434.000
29.43395 436.000
29.63430 438.000
29.83465 390.000
30.03500 392.000
30.23534 424.000
30.43569 376.000
30.63604 397.000
30.83639 384.000
31.03674 361.000
31.23709 367.000
31.43744 353.000
31.63779 347.000
31.83814 338.000
32.03849 520.000
32.23883 543.000
32.43918 392.000
32.63953 319.000
32.83988 323.000
33.04023 319.000
33.24058 305.000
33.44093 292.000
33.64128 294.000
33.84163 294.000
34.04198 285.000
34.24232 283.000
34.44267 280.000
34.64302 259.000
34.84337 260.000
35.04372 279.000
35.24407 293.000
35.44442 269.000
35.64477 253.000
35.84512 237.000
36.04546 273.000
36.24581 245.000
36.44616 244.000
36.64651 253.000
36.84686 196.000
37.04721 249.000
37.24756 212.000
37.44791 226.000
37.64826 225.000
37.84861 249.000
38.04895 221.000
38.24930 215.000
38.44965 206.000
38.65000 212.000
38.85035 227.000
39.05070 202.000
39.25105 215.000
39.45140 213.000
39.65175 207.000
39.85210 206.000
40.05244 216.000
40.25279 194.000
40.45314 226.000
40.65349 240.000
40.85384 325.000
41.05419 332.000
41.25454 222.000
41.45489 208.000
41.65524 203.000
41.85558 236.000
42.05593 187.000
42.25628 225.000
42.45663 223.000
42.65698 222.000
42.85733 213.000
43.05768 215.000
43.25803 236.000
43.45838 272.000
43.65873 292.000
43.85907 219.000
44.05942 219.000
44.25977 217.000
44.46012 223.000
44.66047 219.000
44.86082 215.000
45.06117 215.000
45.26152 209.000
45.46187 171.000
45.66221 215.000
45.86256 240.000
46.06291 205.000
46.26326 223.000
46.46361 212.000
46.66396 222.000
46.86431 207.000
47.06466 206.000
47.26501 219.000
47.46536 172.000
47.66570 201.000
47.86605 189.000
48.06640 203.000
48.26675 199.000
48.46710 229.000
48.66745 203.000
48.86780 190.000
49.06815 182.000
49.26850 202.000
49.46885 211.000
49.66919 176.000
49.86954 190.000
50.06989 200.000
50.27024 199.000
50.47059 214.000
50.67094 218.000
50.87129 215.000
51.07164 207.000
51.27199 171.000
51.47233 198.000
51.67268 174.000
51.87303 190.000
52.07338 172.000
52.27373 168.000
52.47408 178.000
52.67443 170.000
52.87478 189.000
53.07513 175.000
53.27548 170.000
53.47582 177.000
53.67617 162.000
53.87652 140.000
54.07687 159.000
54.27722 160.000
54.47757 159.000
54.67792 186.000
54.87827 161.000
55.07862 169.000
55.27897 181.000
55.47931 154.000
55.67966 165.000
55.88001 167.000
56.08036 157.000
56.28071 154.000
56.48106 138.000
56.68141 145.000
56.88176 185.000
57.08211 156.000
57.28245 143.000
57.48280 172.000
57.68315 146.000
57.88350 143.000
58.08385 202.000
58.28420 162.000
58.48455 158.000
58.68490 150.000
58.88525 201.000
59.08560 212.000
59.28594 197.000
59.48629 150.000
59.68664 147.000
59.88699 154.000
59.98717 145.000

File: sample_4.xy
10.00010 595.000
10.20045 586.000
10.40080 578.000
10.60115 616.000
10.80150 562.000
11.00184 579.000
11.20219 542.000
11.40254 575.000
11.60289 577.000
11.80324 582.000
12.00359 529.000
12.20394 576.000
12.40429 568.000
12.60464 623.000
12.80499 701.000
13.00533 1615.000
13.20568 844.000
13.40603 609.000
13.60638 567.000
13.80673 521.000
14.00708 535.000
14.20743 543.000
14.40778 1814.000
14.60813 685.000
14.80848 492.000
15.00882 485.000
15.20917 487.000
15.40952 498.000
15.60987 472.000
15.81022 480.000
16.01057 432.000
16.21092 444.000
16.41127 447.000
16.61162 463.000
16.81196 476.000
17.01231 462.000
17.21266 421.000
17.41301 428.000
17.61336 451.000
17.81371 429.000
18.01406 463.000
18.21441 473.000
18.41476 449.000
18.61511 476.000
18.81545 506.000
19.01580 501.000
19.21615 465.000
19.41650 522.000
19.61685 495.000
19.81720 494.000
20.01755 547.000
20.21790 564.000
20.41825 632.000
20.61859 589.000
20.81894 550.000
21.01929 596.000
21.21964 599.000
21.41999 539.000
21.62034 568.000
21.82069 580.000
22.02104 611.000
22.22139 647.000
22.42174 595.000
22.62208 622.000
22.82243 693.000
23.02278 617.000
23.22313 623.000
23.42348 607.000
23.62383 616.000
23.82418 627.000
24.02453 630.000
24.22488 612.000
24.42523 636.000
24.62557 613.000
24.82592 681.000
25.02627 903.000
25.22662 642.000
25.42697 605.000
25.62732 622.000
25.82767 807.000
26.02802 697.000
26.22837 604.000
26.42871 516.000
26.62906 563.000
26.82941 512.000
27.02976 483.000
27.23011 487.000
27.43046 480.000
27.63081 454.000
27.83116 484.000
28.03151 425.000
28.23186 479.000
28.43220 457.000
28.63255 687.000
28.83290 1633.000
29.03325 829.000
29.23360 438.000
29.43395 412.000
29.63430 403.000
29.83465 414.000
30.03500 364.000
30.23534 358.000
30.43569 371.000
30.63604 372.000
30.83639 358.000
31.03674 343.000
31.23709 322.000
31.43744 352.000
31.63779 336.000
31.83814 321.000
32.03849 376.000
32.23883 472.000
32.43918 502.000
32.63953 319.000
32.83988 300.000
33.04023 296.000
33.24058 278.000
33.44093 316.000
33.64128 305.000
33.84163 305.000
34.04198 272.000
34.24232 261.000
34.44267 286.000
34.64302 271.000
34.84337 250.000
35.04372 270.000
35.24407 235.000
35.44442 264.000
35.64477 275.000
35.84512 226.000
36.04546 254.000
36.24581 219.000
36.44616 234.000
36.64651 257.000
36.84686 262.000
37.04721 242.000
37.24756 234.000
37.44791 208.000
37.64826 216.000
37.84861 228.000
38.04895 226.000
38.24930 223.000
38.44965 220.000
38.65000 197.000
38.85035 293.000
39.05070 406.000
39.25105 365.000
39.45140 231.000
39.65175 210.000
39.85210 218.000
40.05244 236.000
40.25279 200.000
40.45314 207.000
40.65349 225.000
40.85384 235.000
41.05419 302.000
41.25454 341.000
41.45489 264.000
41.65524 192.000
41.85558 207.000
42.05593 197.000
42.25628 225.000
42.45663 240.000
42.65698 248.000
42.85733 219.000
43.05768 210.000
43.25803 205.000
43.45838 241.000
43.65873 240.000
43.85907 242.000
44.05942 225.000
44.25977 218.000
44.46012 206.000
44.66047 216.000
44.86082 210.000
45.06117 198.000
45.26152 221.000
45.46187 230.000
45.66221 201.000
45.86256 200.000
46.06291 189.000
46.26326 208.000
46.46361 217.000
46.66396 226.000
46.86431 189.000
47.06466 213.000
47.26501 195.000
47.46536 219.000
47.66570 177.000
47.86605 178.000
48.06640 170.000
48.26675 183.000
48.46710 210.000
48.66745 200.000
48.86780 217.000
49.06815 191.000
49.26850 187.000
49.46885 195.000
49.66919 178.000
49.86954 160.000
50.06989 188.000
50.27024 188.000
50.47059 188.000
50.67094 199.000
50.87129 219.000
51.07164 206.000
51.27199 195.000
51.47233 200.000
51.67268 199.000
51.87303 203.000
52.07338 162.000
52.27373 170.000
52.47408 206.000
52.67443 282.000
52.87478 360.000
53.07513 244.000
53.27548 192.000
53.47582 171.000
53.67617 169.000
53.87652 163.000
54.07687 163.000
54.27722 182.000
54.47757 163.000
54.67792 176.000
54.87827 161.000
55.07862 157.000
55.27897 154.000
55.47931 151.000
55.67966 148.000
55.88001 171.000
56.08036 144.000
56.28071 169.000
56.48106 176.000
56.68141 171.000
56.88176 160.000
57.08211 156.000
57.28245 179.000
57.48280 143.000
57.68315 172.000
57.88350 159.000
58.08385 180.000
58.28420 142.000
58.48455 138.000
58.68490 162.000
58.88525 152.000
59.08560 185.000
59.28594 173.000
59.48629 161.000
59.68664 164.000
59.88699 133.000
59.98717 149.000

File: sample_5.xy
10.00010 596.000
10.20045 593.000
10.40080 557.000
10.60115 582.000
10.80150 552.000
11.00184 598.000
11.20219 551.000
11.40254 507.000
11.60289 545.000
11.80324 572.000
12.00359 558.000
12.20394 564.000
12.40429 545.000
12.60464 569.000
12.80499 537.000
13.00533 548.000
13.20568 539.000
13.40603 536.000
13.60638 516.000
13.80673 512.000
14.00708 536.000
14.20743 493.000
14.40778 536.000
14.60813 890.000
14.80848 631.000
15.00882 454.000
15.20917 466.000
15.40952 452.000
15.60987 445.000
15.81022 447.000
16.01057 487.000
16.21092 427.000
16.41127 457.000
16.61162 465.000
16.81196 450.000
17.01231 445.000
17.21266 469.000
17.41301 429.000
17.61336 416.000
17.81371 460.000
18.01406 399.000
18.21441 433.000
18.41476 464.000
18.61511 483.000
18.81545 465.000
19.01580 454.000
19.21615 502.000
19.41650 462.000
19.61685 517.000
19.81720 489.000
20.01755 534.000
20.21790 516.000
20.41825 507.000
20.61859 826.000
20.81894 1171.000
21.01929 620.000
21.21964 547.000
21.41999 566.000
21.62034 583.000
21.82069 608.000
22.02104 610.000
22.22139 628.000
22.42174 602.000
22.62208 541.000
22.82243 570.000
23.02278 642.000
23.22313 968.000
23.42348 630.000
23.62383 576.000
23.82418 581.000
24.02453 584.000
24.22488 609.000
24.42523 679.000
24.62557 555.000
24.82592 607.000
25.02627 560.000
25.22662 646.000
25.42697 1123.000
25.62732 605.000
25.82767 528.000
26.02802 553.000
26.22837 518.000
26.42871 534.000
26.62906 504.000
26.82941 518.000
27.02976 487.000
27.23011 487.000
27.43046 546.000
27.63081 477.000
27.83116 487.000
28.03151 478.000
28.23186 410.000
28.43220 457.000
28.63255 427.000
28.83290 439.000
29.03325 525.000
29.23360 841.000
29.43395 1620.000
29.63430 480.000
29.83465 446.000
30.03500 415.000
30.23534 435.000
30.43569 392.000
30.63604 371.000
30.83639 376.000
31.03674 334.000
31.23709 363.000
31.43744 322.000
31.63779 333.000
31.83814 313.000
32.03849 360.000
32.23883 351.000
32.43918 315.000
32.63953 325.000
32.83988 362.000
33.04023 462.000
33.24058 282.000
33.44093 276.000
33.64128 269.000
33.84163 278.000
34.04198 299.000
34.24232 302.000
34.44267 291.000
34.64302 297.000
34.84337 239.000
35.04372 236.000
35.24407 275.000
35.44442 244.000
35.64477 237.000
35.84512 257.000
36.04546 302.000
36.24581 339.000
36.44616 272.000
36.64651 265.000
36.84686 232.000
37.04721 230.000
37.24756 229.000
37.44791 216.000
37.64826 263.000
37.84861 208.000
38.04895 221.000
38.24930 192.000
38.44965 214.000
38.65000 218.000
38.85035 216.000
39.05070 193.000
39.25105 199.000
39.45140 213.000
39.65175 181.000
39.85210 196.000
40.05244 205.000
40.25279 190.000
40.45314 185.000
40.65349 198.000
40.85384 185.000
41.05419 221.000
41.25454 215.000
41.45489 235.000
41.65524 373.000
41.85558 264.000
42.05593 365.000
42.25628 268.000
42.45663 246.000
42.65698 227.000
42.85733 238.000
43.05768 220.000
43.25803 175.000
43.45838 307.000
43.65873 243.000
43.85907 228.000
44.05942 231.000
44.25977 219.000
44.46012 228.000
44.66047 217.000
44.86082 200.000
45.06117 214.000
45.26152 229.000
45.46187 190.000
45.66221 187.000
45.86256 205.000
46.06291 238.000
46.26326 213.000
46.46361 215.000
46.66396 206.000
46.86431 216.000
47.06466 197.000
47.26501 217.000
47.46536 210.000
47.66570 179.000
47.86605 188.000
48.06640 192.000
48.26675 207.000
48.46710 194.000
48.66745 183.000
48.86780 202.000
49.06815 187.000
49.26850 179.000
49.46885 187.000
49.66919 201.000
49.86954 162.000
50.06989 172.000
50.27024 161.000
50.47059 171.000
50.67094 195.000
50.87129 164.000
51.07164 176.000
51.27199 187.000
51.47233 166.000
51.67268 169.000
51.87303 179.000
52.07338 165.000
52.27373 201.000
52.47408 183.000
52.67443 190.000
52.87478 157.000
53.07513 165.000
53.27548 155.000
53.47582 160.000
53.67617 192.000
53.87652 146.000
54.07687 147.000
54.27722 169.000
54.47757 152.000
54.67792 156.000
54.87827 143.000
55.07862 163.000
55.27897 167.000
55.47931 165.000
55.67966 171.000
55.88001 175.000
56.08036 155.000
56.28071 182.000
56.48106 144.000
56.68141 169.000
56.88176 160.000
57.08211 139.000
57.28245 157.000
57.48280 161.000
57.68315 163.000
57.88350 176.000
58.08385 172.000
58.28420 162.000
58.48455 145.000
58.68490 177.000
58.88525 163.000
59.08560 148.000
59.28594 150.000
59.48629 166.000
59.68664 159.000
59.88699 167.000
59.98717 165.000

File: sample_6.xy
10.00010 600.000
10.20045 585.000
10.40080 551.000
10.60115 564.000
10.80150 549.000
11.00184 553.000
11.20219 539.000
11.40254 578.000
11.60289 533.000
11.80324 522.000
12.00359 577.000
12.20394 530.000
12.40429 546.000
12.60464 563.000
12.80499 622.000
13.00533 572.000
13.20568 561.000
13.40603 489.000
13.60638 536.000
13.80673 499.000
14.00708 532.000
14.20743 831.000
14.40778 1084.000
14.60813 504.000
14.80848 469.000
15.00882 479.000
15.20917 458.000
15.40952 474.000
15.60987 436.000
15.81022 485.000
16.01057 446.000
16.21092 426.000
16.41127 427.000
16.61162 439.000
16.81196 446.000
17.01231 447.000
17.21266 468.000
17.41301 434.000
17.61336 442.000
17.81371 460.000
18.01406 436.000
18.21441 439.000
18.41476 481.000
18.61511 531.000
18.81545 507.000
19.01580 507.000
19.21615 468.000
19.41650 486.000
19.61685 518.000
19.81720 496.000
20.01755 561.000
20.21790 629.000
20.41825 548.000
20.61859 562.000
20.81894 588.000
21.01929 586.000
21.21964 610.000
21.41999 625.000
21.62034 571.000
21.82069 574.000
22.02104 632.000
22.22139 601.000
22.42174 570.000
22.62208 630.000
22.82243 596.000
23.02278 573.000
23.22313 599.000
23.42348 630.000
23.62383 604.000
23.82418 593.000
24.02453 628.000
24.22488 643.000
24.42523 615.000
24.62557 736.000
24.82592 664.000
25.02627 609.000
25.22662 605.000
25.42697 559.000
25.62732 575.000
25.82767 567.000
26.02802 568.000
26.22837 542.000
26.42871 556.000
26.62906 504.000
26.82941 502.000
27.02976 524.000
27.23011 515.000
27.43046 494.000
27.63081 491.000
27.83116 461.000
28.03151 463.000
28.23186 500.000
28.43220 600.000
28.63255 1389.000
28.83290 506.000
29.03325 420.000
29.23360 444.000
29.43395 406.000
29.63430 395.000
29.83465 375.000
30.03500 387.000
30.23534 390.000
30.43569 387.000
30.63604 355.000
30.83639 381.000
31.03674 384.000
31.23709 393.000
31.43744 356.000
31.63779 342.000
31.83814 397.000
32.03849 604.000
32.23883 369.000
32.43918 335.000
32.63953 309.000
32.83988 323.000
33.04023 332.000
33.24058 320.000
33.44093 267.000
33.64128 302.000
33.84163 284.000
34.04198 291.000
34.24232 251.000
34.44267 263.000
34.64302 287.000
34.84337 265.000
35.04372 269.000
35.24407 278.000
35.44442 259.000
35.64477 242.000
35.84512 216.000
36.04546 256.000
36.24581 238.000
36.44616 228.000
36.64651 230.000
36.84686 255.000
37.04721 229.000
37.24756 233.000
37.44791 210.000
37.64826 245.000
37.84861 228.000
38.04895 227.000
38.24930 207.000
38.44965 214.000
38.65000 222.000
38.85035 215.000
39.05070 218.000
39.25105 224.000
39.45140 198.000
39.65175 225.000
39.85210 193.000
40.05244 205.000
40.25279 222.000
40.45314 275.000
40.65349 676.000
40.85384 301.000
41.05419 258.000
41.25454 216.000
41.45489 223.000
41.65524 229.000
41.85558 223.000
42.05593 226.000
42.25628 198.000
42.45663 231.000
42.65698 229.000
42.85733 219.000
43.05768 249.000
43.25803 367.000
43.45838 218.000
43.65873 203.000
43.85907 223.000
44.05942 221.000
44.25977 231.000
44.46012 192.000
44.66047 215.000
44.86082 216.000
45.06117 190.000
45.26152 197.000
45.46187 213.000
45.66221 226.000
45.86256 207.000
46.06291 190.000
46.26326 188.000
46.46361 192.000
46.66396 179.000
46.86431 202.000
47.06466 193.000
47.26501 196.000
47.46536 207.000
47.66570 211.000
47.86605 206.000
48.06640 204.000
48.26675 192.000
48.46710 192.000
48.66745 198.000
48.86780 207.000
49.06815 180.000
49.26850 187.000
49.46885 183.000
49.66919 184.000
49.86954 187.000
50.06989 181.000
50.27024 202.000
50.47059 206.000
50.67094 203.000
50.87129 156.000
51.07164 163.000
51.27199 184.000
51.47233 172.000
51.67268 175.000
51.87303 163.000
52.07338 204.000
52.27373 183.000
52.47408 200.000
52.67443 166.000
52.87478 157.000
53.07513 164.000
53.27548 157.000
53.47582 184.000
53.67617 195.000
53.87652 159.000
54.07687 172.000
54.27722 161.000
54.47757 173.000
54.67792 152.000
54.87827 169.000
55.07862 164.000
55.27897 150.000
55.47931 182.000
55.67966 158.000
55.88001 158.000
56.08036 157.000
56.28071 170.000
56.48106 148.000
56.68141 169.000
56.88176 176.000
57.08211 169.000
57.28245 145.000
57.48280 159.000
57.68315 151.000
57.88350 178.000
58.08385 171.000
58.28420 155.000
58.48455 175.000
58.68490 174.000
58.88525 177.000
59.08560 164.000
59.28594 159.000
59.48629 159.000
59.68664 153.000
59.88699 157.000
59.98717 163.000